[
  {
    "rt": -1,
    "key_press": -1,
    "TrialNumber": 1,
    "Subject": "s999",
    "TrialType": 6,
    "Response": 5,
    "TestTrial": 9,
    "trial_type": "single-stim",
    "trial_index": 0,
    "time_elapsed": 52,
    "internal_node_id": "0.0-0.0"
  },
  {
    "rt": -1,
    "key_press": -1,
    "TrialNumber": 2,
    "Subject": "s999",
    "TrialType": 2,
    "Response": 1,
    "TestTrial": 5,
    "trial_type": "single-stim",
    "trial_index": 1,
    "time_elapsed": 57,
    "internal_node_id": "0.0-1.0"
  },
  {
    "rt": -1,
    "key_press": -1,
    "TrialNumber": 3,
    "Subject": "s999",
    "TrialType": 4,
    "Response": 4,
    "TestTrial": 6,
    "trial_type": "single-stim",
    "trial_index": 2,
    "time_elapsed": 59,
    "internal_node_id": "0.0-2.0"
  },
  {
    "rt": -1,
    "key_press": -1,
    "TrialNumber": 4,
    "Subject": "s999",
    "TrialType": 5,
    "Response": 3,
    "TestTrial": 8,
    "trial_type": "single-stim",
    "trial_index": 3,
    "time_elapsed": 69,
    "internal_node_id": "0.0-3.0"
  },
  {
    "rt": -1,
    "key_press": -1,
    "TrialNumber": 5,
    "Subject": "s999",
    "TrialType": 3,
    "Response": 3,
    "TestTrial": 8,
    "trial_type": "single-stim",
    "trial_index": 4,
    "time_elapsed": 73,
    "internal_node_id": "0.0-4.0"
  },
  {
    "rt": -1,
    "key_press": -1,
    "TrialNumber": 6,
    "Subject": "s999",
    "TrialType": 7,
    "Response": 9,
    "TestTrial": 1,
    "trial_type": "single-stim",
    "trial_index": 5,
    "time_elapsed": 78,
    "internal_node_id": "0.0-5.0"
  },
  {
    "rt": -1,
    "key_press": -1,
    "TrialNumber": 7,
    "Subject": "s999",
    "TrialType": 1,
    "Response": 0,
    "TestTrial": 6,
    "trial_type": "single-stim",
    "trial_index": 6,
    "time_elapsed": 83,
    "internal_node_id": "0.0-6.0"
  },
  {
    "rt": -1,
    "key_press": -1,
    "TrialNumber": 8,
    "Subject": "s999",
    "TrialType": 8,
    "Response": 8,
    "TestTrial": 4,
    "trial_type": "single-stim",
    "trial_index": 7,
    "time_elapsed": 88,
    "internal_node_id": "0.0-7.0"
  },
  {
    "rt": -1,
    "key_press": -1,
    "TrialNumber": 9,
    "Subject": "s999",
    "TrialType": 7,
    "Response": 4,
    "TestTrial": 7,
    "trial_type": "single-stim",
    "trial_index": 8,
    "time_elapsed": 93,
    "internal_node_id": "0.0-8.0"
  },
  {
    "rt": -1,
    "key_press": -1,
    "TrialNumber": 10,
    "Subject": "s999",
    "TrialType": 0,
    "Response": 5,
    "TestTrial": 7,
    "trial_type": "single-stim",
    "trial_index": 9,
    "time_elapsed": 99,
    "internal_node_id": "0.0-9.0"
  },
  {
    "rt": -1,
    "key_press": -1,
    "TrialNumber": 11,
    "Subject": "s999",
    "TrialType": 1,
    "Response": 8,
    "TestTrial": 1,
    "trial_type": "single-stim",
    "trial_index": 10,
    "time_elapsed": 104,
    "internal_node_id": "0.0-10.0"
  },
  {
    "rt": -1,
    "key_press": -1,
    "TrialNumber": 12,
    "Subject": "s999",
    "TrialType": 0,
    "Response": 6,
    "TestTrial": 8,
    "trial_type": "single-stim",
    "trial_index": 11,
    "time_elapsed": 112,
    "internal_node_id": "0.0-11.0"
  },
  {
    "rt": -1,
    "key_press": -1,
    "TrialNumber": 13,
    "Subject": "s999",
    "TrialType": 3,
    "Response": 5,
    "TestTrial": 9,
    "trial_type": "single-stim",
    "trial_index": 12,
    "time_elapsed": 122,
    "internal_node_id": "0.0-12.0"
  },
  {
    "rt": -1,
    "key_press": -1,
    "TrialNumber": 14,
    "Subject": "s999",
    "TrialType": 5,
    "Response": 5,
    "TestTrial": 4,
    "trial_type": "single-stim",
    "trial_index": 13,
    "time_elapsed": 134,
    "internal_node_id": "0.0-13.0"
  },
  {
    "rt": -1,
    "key_press": -1,
    "TrialNumber": 15,
    "Subject": "s999",
    "TrialType": 7,
    "Response": 3,
    "TestTrial": 3,
    "trial_type": "single-stim",
    "trial_index": 14,
    "time_elapsed": 142,
    "internal_node_id": "0.0-14.0"
  },
  {
    "rt": -1,
    "key_press": -1,
    "TrialNumber": 16,
    "Subject": "s999",
    "TrialType": 1,
    "Response": 8,
    "TestTrial": 0,
    "trial_type": "single-stim",
    "trial_index": 15,
    "time_elapsed": 149,
    "internal_node_id": "0.0-15.0"
  },
  {
    "rt": -1,
    "key_press": -1,
    "TrialNumber": 17,
    "Subject": "s999",
    "TrialType": 9,
    "Response": 5,
    "TestTrial": 3,
    "trial_type": "single-stim",
    "trial_index": 16,
    "time_elapsed": 154,
    "internal_node_id": "0.0-16.0"
  },
  {
    "rt": -1,
    "key_press": -1,
    "TrialNumber": 18,
    "Subject": "s999",
    "TrialType": 5,
    "Response": 6,
    "TestTrial": 9,
    "trial_type": "single-stim",
    "trial_index": 17,
    "time_elapsed": 159,
    "internal_node_id": "0.0-17.0"
  },
  {
    "rt": -1,
    "key_press": -1,
    "TrialNumber": 19,
    "Subject": "s999",
    "TrialType": 1,
    "Response": 3,
    "TestTrial": 4,
    "trial_type": "single-stim",
    "trial_index": 18,
    "time_elapsed": 164,
    "internal_node_id": "0.0-18.0"
  },
  {
    "rt": -1,
    "key_press": -1,
    "TrialNumber": 20,
    "Subject": "s999",
    "TrialType": 8,
    "Response": 5,
    "TestTrial": 7,
    "trial_type": "single-stim",
    "trial_index": 19,
    "time_elapsed": 168,
    "internal_node_id": "0.0-19.0"
  },
  {
    "rt": -1,
    "key_press": -1,
    "TrialNumber": 21,
    "Subject": "s999",
    "TrialType": 1,
    "Response": 6,
    "TestTrial": 7,
    "trial_type": "single-stim",
    "trial_index": 20,
    "time_elapsed": 173,
    "internal_node_id": "0.0-20.0"
  },
  {
    "rt": -1,
    "key_press": -1,
    "TrialNumber": 22,
    "Subject": "s999",
    "TrialType": 3,
    "Response": 3,
    "TestTrial": 2,
    "trial_type": "single-stim",
    "trial_index": 21,
    "time_elapsed": 178,
    "internal_node_id": "0.0-21.0"
  },
  {
    "rt": -1,
    "key_press": -1,
    "TrialNumber": 23,
    "Subject": "s999",
    "TrialType": 5,
    "Response": 1,
    "TestTrial": 2,
    "trial_type": "single-stim",
    "trial_index": 22,
    "time_elapsed": 183,
    "internal_node_id": "0.0-22.0"
  },
  {
    "rt": -1,
    "key_press": -1,
    "TrialNumber": 24,
    "Subject": "s999",
    "TrialType": 1,
    "Response": 5,
    "TestTrial": 2,
    "trial_type": "single-stim",
    "trial_index": 23,
    "time_elapsed": 187,
    "internal_node_id": "0.0-23.0"
  },
  {
    "rt": -1,
    "key_press": -1,
    "TrialNumber": 25,
    "Subject": "s999",
    "TrialType": 8,
    "Response": 7,
    "TestTrial": 7,
    "trial_type": "single-stim",
    "trial_index": 24,
    "time_elapsed": 193,
    "internal_node_id": "0.0-24.0"
  },
  {
    "rt": -1,
    "key_press": -1,
    "TrialNumber": 26,
    "Subject": "s999",
    "TrialType": 3,
    "Response": 6,
    "TestTrial": 8,
    "trial_type": "single-stim",
    "trial_index": 25,
    "time_elapsed": 199,
    "internal_node_id": "0.0-25.0"
  },
  {
    "rt": -1,
    "key_press": -1,
    "TrialNumber": 27,
    "Subject": "s999",
    "TrialType": 3,
    "Response": 7,
    "TestTrial": 3,
    "trial_type": "single-stim",
    "trial_index": 26,
    "time_elapsed": 203,
    "internal_node_id": "0.0-26.0"
  },
  {
    "rt": -1,
    "key_press": -1,
    "TrialNumber": 28,
    "Subject": "s999",
    "TrialType": 2,
    "Response": 4,
    "TestTrial": 0,
    "trial_type": "single-stim",
    "trial_index": 27,
    "time_elapsed": 208,
    "internal_node_id": "0.0-27.0"
  },
  {
    "rt": -1,
    "key_press": -1,
    "TrialNumber": 29,
    "Subject": "s999",
    "TrialType": 9,
    "Response": 9,
    "TestTrial": 2,
    "trial_type": "single-stim",
    "trial_index": 28,
    "time_elapsed": 213,
    "internal_node_id": "0.0-28.0"
  },
  {
    "rt": -1,
    "key_press": -1,
    "TrialNumber": 30,
    "Subject": "s999",
    "TrialType": 7,
    "Response": 9,
    "TestTrial": 5,
    "trial_type": "single-stim",
    "trial_index": 29,
    "time_elapsed": 218,
    "internal_node_id": "0.0-29.0"
  },
  {
    "rt": -1,
    "key_press": -1,
    "TrialNumber": 31,
    "Subject": "s999",
    "TrialType": 6,
    "Response": 6,
    "TestTrial": 7,
    "trial_type": "single-stim",
    "trial_index": 30,
    "time_elapsed": 223,
    "internal_node_id": "0.0-30.0"
  },
  {
    "rt": -1,
    "key_press": -1,
    "TrialNumber": 32,
    "Subject": "s999",
    "TrialType": 6,
    "Response": 3,
    "TestTrial": 2,
    "trial_type": "single-stim",
    "trial_index": 31,
    "time_elapsed": 228,
    "internal_node_id": "0.0-31.0"
  },
  {
    "rt": -1,
    "key_press": -1,
    "TrialNumber": 33,
    "Subject": "s999",
    "TrialType": 5,
    "Response": 5,
    "TestTrial": 1,
    "trial_type": "single-stim",
    "trial_index": 32,
    "time_elapsed": 234,
    "internal_node_id": "0.0-32.0"
  },
  {
    "rt": -1,
    "key_press": -1,
    "TrialNumber": 34,
    "Subject": "s999",
    "TrialType": 3,
    "Response": 4,
    "TestTrial": 0,
    "trial_type": "single-stim",
    "trial_index": 33,
    "time_elapsed": 238,
    "internal_node_id": "0.0-33.0"
  },
  {
    "rt": -1,
    "key_press": -1,
    "TrialNumber": 35,
    "Subject": "s999",
    "TrialType": 9,
    "Response": 9,
    "TestTrial": 5,
    "trial_type": "single-stim",
    "trial_index": 34,
    "time_elapsed": 243,
    "internal_node_id": "0.0-34.0"
  },
  {
    "rt": -1,
    "key_press": -1,
    "TrialNumber": 36,
    "Subject": "s999",
    "TrialType": 6,
    "Response": 1,
    "TestTrial": 0,
    "trial_type": "single-stim",
    "trial_index": 35,
    "time_elapsed": 255,
    "internal_node_id": "0.0-35.0"
  },
  {
    "rt": -1,
    "key_press": -1,
    "TrialNumber": 37,
    "Subject": "s999",
    "TrialType": 4,
    "Response": 7,
    "TestTrial": 9,
    "trial_type": "single-stim",
    "trial_index": 36,
    "time_elapsed": 260,
    "internal_node_id": "0.0-36.0"
  },
  {
    "rt": -1,
    "key_press": -1,
    "TrialNumber": 38,
    "Subject": "s999",
    "TrialType": 9,
    "Response": 9,
    "TestTrial": 9,
    "trial_type": "single-stim",
    "trial_index": 37,
    "time_elapsed": 265,
    "internal_node_id": "0.0-37.0"
  },
  {
    "rt": -1,
    "key_press": -1,
    "TrialNumber": 39,
    "Subject": "s999",
    "TrialType": 1,
    "Response": 7,
    "TestTrial": 6,
    "trial_type": "single-stim",
    "trial_index": 38,
    "time_elapsed": 272,
    "internal_node_id": "0.0-38.0"
  },
  {
    "rt": -1,
    "key_press": -1,
    "TrialNumber": 40,
    "Subject": "s999",
    "TrialType": 3,
    "Response": 1,
    "TestTrial": 8,
    "trial_type": "single-stim",
    "trial_index": 39,
    "time_elapsed": 283,
    "internal_node_id": "0.0-39.0"
  },
  {
    "rt": -1,
    "key_press": -1,
    "TrialNumber": 41,
    "Subject": "s999",
    "TrialType": 2,
    "Response": 7,
    "TestTrial": 3,
    "trial_type": "single-stim",
    "trial_index": 40,
    "time_elapsed": 292,
    "internal_node_id": "0.0-40.0"
  },
  {
    "rt": -1,
    "key_press": -1,
    "TrialNumber": 42,
    "Subject": "s999",
    "TrialType": 9,
    "Response": 9,
    "TestTrial": 4,
    "trial_type": "single-stim",
    "trial_index": 41,
    "time_elapsed": 301,
    "internal_node_id": "0.0-41.0"
  },
  {
    "rt": -1,
    "key_press": -1,
    "TrialNumber": 43,
    "Subject": "s999",
    "TrialType": 3,
    "Response": 8,
    "TestTrial": 0,
    "trial_type": "single-stim",
    "trial_index": 42,
    "time_elapsed": 306,
    "internal_node_id": "0.0-42.0"
  },
  {
    "rt": -1,
    "key_press": -1,
    "TrialNumber": 44,
    "Subject": "s999",
    "TrialType": 6,
    "Response": 2,
    "TestTrial": 0,
    "trial_type": "single-stim",
    "trial_index": 43,
    "time_elapsed": 312,
    "internal_node_id": "0.0-43.0"
  },
  {
    "rt": -1,
    "key_press": -1,
    "TrialNumber": 45,
    "Subject": "s999",
    "TrialType": 2,
    "Response": 9,
    "TestTrial": 9,
    "trial_type": "single-stim",
    "trial_index": 44,
    "time_elapsed": 318,
    "internal_node_id": "0.0-44.0"
  },
  {
    "rt": -1,
    "key_press": -1,
    "TrialNumber": 46,
    "Subject": "s999",
    "TrialType": 0,
    "Response": 6,
    "TestTrial": 3,
    "trial_type": "single-stim",
    "trial_index": 45,
    "time_elapsed": 326,
    "internal_node_id": "0.0-45.0"
  },
  {
    "rt": -1,
    "key_press": -1,
    "TrialNumber": 47,
    "Subject": "s999",
    "TrialType": 1,
    "Response": 0,
    "TestTrial": 9,
    "trial_type": "single-stim",
    "trial_index": 46,
    "time_elapsed": 330,
    "internal_node_id": "0.0-46.0"
  },
  {
    "rt": -1,
    "key_press": -1,
    "TrialNumber": 48,
    "Subject": "s999",
    "TrialType": 8,
    "Response": 9,
    "TestTrial": 4,
    "trial_type": "single-stim",
    "trial_index": 47,
    "time_elapsed": 339,
    "internal_node_id": "0.0-47.0"
  },
  {
    "rt": -1,
    "key_press": -1,
    "TrialNumber": 49,
    "Subject": "s999",
    "TrialType": 3,
    "Response": 8,
    "TestTrial": 2,
    "trial_type": "single-stim",
    "trial_index": 48,
    "time_elapsed": 344,
    "internal_node_id": "0.0-48.0"
  },
  {
    "rt": -1,
    "key_press": -1,
    "TrialNumber": 50,
    "Subject": "s999",
    "TrialType": 0,
    "Response": 5,
    "TestTrial": 3,
    "trial_type": "single-stim",
    "trial_index": 49,
    "time_elapsed": 353,
    "internal_node_id": "0.0-49.0"
  },
  {
    "rt": -1,
    "key_press": -1,
    "TrialNumber": 51,
    "Subject": "s999",
    "TrialType": 7,
    "Response": 4,
    "TestTrial": 0,
    "trial_type": "single-stim",
    "trial_index": 50,
    "time_elapsed": 363,
    "internal_node_id": "0.0-50.0"
  },
  {
    "rt": -1,
    "key_press": -1,
    "TrialNumber": 52,
    "Subject": "s999",
    "TrialType": 9,
    "Response": 0,
    "TestTrial": 8,
    "trial_type": "single-stim",
    "trial_index": 51,
    "time_elapsed": 368,
    "internal_node_id": "0.0-51.0"
  },
  {
    "rt": -1,
    "key_press": -1,
    "TrialNumber": 53,
    "Subject": "s999",
    "TrialType": 9,
    "Response": 5,
    "TestTrial": 8,
    "trial_type": "single-stim",
    "trial_index": 52,
    "time_elapsed": 373,
    "internal_node_id": "0.0-52.0"
  },
  {
    "rt": -1,
    "key_press": -1,
    "TrialNumber": 54,
    "Subject": "s999",
    "TrialType": 2,
    "Response": 0,
    "TestTrial": 8,
    "trial_type": "single-stim",
    "trial_index": 53,
    "time_elapsed": 384,
    "internal_node_id": "0.0-53.0"
  },
  {
    "rt": -1,
    "key_press": -1,
    "TrialNumber": 55,
    "Subject": "s999",
    "TrialType": 9,
    "Response": 8,
    "TestTrial": 4,
    "trial_type": "single-stim",
    "trial_index": 54,
    "time_elapsed": 390,
    "internal_node_id": "0.0-54.0"
  },
  {
    "rt": -1,
    "key_press": -1,
    "TrialNumber": 56,
    "Subject": "s999",
    "TrialType": 0,
    "Response": 9,
    "TestTrial": 3,
    "trial_type": "single-stim",
    "trial_index": 55,
    "time_elapsed": 410,
    "internal_node_id": "0.0-55.0"
  },
  {
    "rt": -1,
    "key_press": -1,
    "TrialNumber": 57,
    "Subject": "s999",
    "TrialType": 1,
    "Response": 1,
    "TestTrial": 6,
    "trial_type": "single-stim",
    "trial_index": 56,
    "time_elapsed": 415,
    "internal_node_id": "0.0-56.0"
  },
  {
    "rt": -1,
    "key_press": -1,
    "TrialNumber": 58,
    "Subject": "s999",
    "TrialType": 5,
    "Response": 7,
    "TestTrial": 4,
    "trial_type": "single-stim",
    "trial_index": 57,
    "time_elapsed": 421,
    "internal_node_id": "0.0-57.0"
  },
  {
    "rt": -1,
    "key_press": -1,
    "TrialNumber": 59,
    "Subject": "s999",
    "TrialType": 0,
    "Response": 3,
    "TestTrial": 8,
    "trial_type": "single-stim",
    "trial_index": 58,
    "time_elapsed": 427,
    "internal_node_id": "0.0-58.0"
  },
  {
    "rt": -1,
    "key_press": -1,
    "TrialNumber": 60,
    "Subject": "s999",
    "TrialType": 7,
    "Response": 5,
    "TestTrial": 6,
    "trial_type": "single-stim",
    "trial_index": 59,
    "time_elapsed": 431,
    "internal_node_id": "0.0-59.0"
  },
  {
    "rt": -1,
    "key_press": -1,
    "TrialNumber": 61,
    "Subject": "s999",
    "TrialType": 8,
    "Response": 0,
    "TestTrial": 6,
    "trial_type": "single-stim",
    "trial_index": 60,
    "time_elapsed": 436,
    "internal_node_id": "0.0-60.0"
  },
  {
    "rt": -1,
    "key_press": -1,
    "TrialNumber": 62,
    "Subject": "s999",
    "TrialType": 6,
    "Response": 2,
    "TestTrial": 5,
    "trial_type": "single-stim",
    "trial_index": 61,
    "time_elapsed": 441,
    "internal_node_id": "0.0-61.0"
  },
  {
    "rt": -1,
    "key_press": -1,
    "TrialNumber": 63,
    "Subject": "s999",
    "TrialType": 6,
    "Response": 1,
    "TestTrial": 8,
    "trial_type": "single-stim",
    "trial_index": 62,
    "time_elapsed": 448,
    "internal_node_id": "0.0-62.0"
  },
  {
    "rt": -1,
    "key_press": -1,
    "TrialNumber": 64,
    "Subject": "s999",
    "TrialType": 3,
    "Response": 5,
    "TestTrial": 1,
    "trial_type": "single-stim",
    "trial_index": 63,
    "time_elapsed": 453,
    "internal_node_id": "0.0-63.0"
  },
  {
    "rt": -1,
    "key_press": -1,
    "TrialNumber": 65,
    "Subject": "s999",
    "TrialType": 8,
    "Response": 0,
    "TestTrial": 4,
    "trial_type": "single-stim",
    "trial_index": 64,
    "time_elapsed": 458,
    "internal_node_id": "0.0-64.0"
  },
  {
    "rt": -1,
    "key_press": -1,
    "TrialNumber": 66,
    "Subject": "s999",
    "TrialType": 9,
    "Response": 1,
    "TestTrial": 1,
    "trial_type": "single-stim",
    "trial_index": 65,
    "time_elapsed": 464,
    "internal_node_id": "0.0-65.0"
  },
  {
    "rt": -1,
    "key_press": -1,
    "TrialNumber": 67,
    "Subject": "s999",
    "TrialType": 8,
    "Response": 2,
    "TestTrial": 1,
    "trial_type": "single-stim",
    "trial_index": 66,
    "time_elapsed": 469,
    "internal_node_id": "0.0-66.0"
  },
  {
    "rt": -1,
    "key_press": -1,
    "TrialNumber": 68,
    "Subject": "s999",
    "TrialType": 6,
    "Response": 6,
    "TestTrial": 7,
    "trial_type": "single-stim",
    "trial_index": 67,
    "time_elapsed": 474,
    "internal_node_id": "0.0-67.0"
  },
  {
    "rt": -1,
    "key_press": -1,
    "TrialNumber": 69,
    "Subject": "s999",
    "TrialType": 8,
    "Response": 2,
    "TestTrial": 4,
    "trial_type": "single-stim",
    "trial_index": 68,
    "time_elapsed": 478,
    "internal_node_id": "0.0-68.0"
  },
  {
    "rt": -1,
    "key_press": -1,
    "TrialNumber": 70,
    "Subject": "s999",
    "TrialType": 3,
    "Response": 4,
    "TestTrial": 9,
    "trial_type": "single-stim",
    "trial_index": 69,
    "time_elapsed": 483,
    "internal_node_id": "0.0-69.0"
  },
  {
    "rt": -1,
    "key_press": -1,
    "TrialNumber": 71,
    "Subject": "s999",
    "TrialType": 7,
    "Response": 8,
    "TestTrial": 0,
    "trial_type": "single-stim",
    "trial_index": 70,
    "time_elapsed": 488,
    "internal_node_id": "0.0-70.0"
  },
  {
    "rt": -1,
    "key_press": -1,
    "TrialNumber": 72,
    "Subject": "s999",
    "TrialType": 0,
    "Response": 4,
    "TestTrial": 2,
    "trial_type": "single-stim",
    "trial_index": 71,
    "time_elapsed": 493,
    "internal_node_id": "0.0-71.0"
  },
  {
    "rt": -1,
    "key_press": -1,
    "TrialNumber": 73,
    "Subject": "s999",
    "TrialType": 5,
    "Response": 1,
    "TestTrial": 8,
    "trial_type": "single-stim",
    "trial_index": 72,
    "time_elapsed": 498,
    "internal_node_id": "0.0-72.0"
  },
  {
    "rt": -1,
    "key_press": -1,
    "TrialNumber": 74,
    "Subject": "s999",
    "TrialType": 2,
    "Response": 1,
    "TestTrial": 7,
    "trial_type": "single-stim",
    "trial_index": 73,
    "time_elapsed": 503,
    "internal_node_id": "0.0-73.0"
  },
  {
    "rt": -1,
    "key_press": -1,
    "TrialNumber": 75,
    "Subject": "s999",
    "TrialType": 2,
    "Response": 0,
    "TestTrial": 1,
    "trial_type": "single-stim",
    "trial_index": 74,
    "time_elapsed": 507,
    "internal_node_id": "0.0-74.0"
  },
  {
    "rt": -1,
    "key_press": -1,
    "TrialNumber": 76,
    "Subject": "s999",
    "TrialType": 0,
    "Response": 0,
    "TestTrial": 8,
    "trial_type": "single-stim",
    "trial_index": 75,
    "time_elapsed": 512,
    "internal_node_id": "0.0-75.0"
  },
  {
    "rt": -1,
    "key_press": -1,
    "TrialNumber": 77,
    "Subject": "s999",
    "TrialType": 0,
    "Response": 1,
    "TestTrial": 7,
    "trial_type": "single-stim",
    "trial_index": 76,
    "time_elapsed": 517,
    "internal_node_id": "0.0-76.0"
  },
  {
    "rt": -1,
    "key_press": -1,
    "TrialNumber": 78,
    "Subject": "s999",
    "TrialType": 0,
    "Response": 6,
    "TestTrial": 2,
    "trial_type": "single-stim",
    "trial_index": 77,
    "time_elapsed": 521,
    "internal_node_id": "0.0-77.0"
  },
  {
    "rt": -1,
    "key_press": -1,
    "TrialNumber": 79,
    "Subject": "s999",
    "TrialType": 2,
    "Response": 2,
    "TestTrial": 6,
    "trial_type": "single-stim",
    "trial_index": 78,
    "time_elapsed": 526,
    "internal_node_id": "0.0-78.0"
  },
  {
    "rt": -1,
    "key_press": -1,
    "TrialNumber": 80,
    "Subject": "s999",
    "TrialType": 9,
    "Response": 5,
    "TestTrial": 1,
    "trial_type": "single-stim",
    "trial_index": 79,
    "time_elapsed": 531,
    "internal_node_id": "0.0-79.0"
  },
  {
    "rt": -1,
    "key_press": -1,
    "TrialNumber": 81,
    "Subject": "s999",
    "TrialType": 3,
    "Response": 4,
    "TestTrial": 5,
    "trial_type": "single-stim",
    "trial_index": 80,
    "time_elapsed": 536,
    "internal_node_id": "0.0-80.0"
  },
  {
    "rt": -1,
    "key_press": -1,
    "TrialNumber": 82,
    "Subject": "s999",
    "TrialType": 4,
    "Response": 1,
    "TestTrial": 9,
    "trial_type": "single-stim",
    "trial_index": 81,
    "time_elapsed": 540,
    "internal_node_id": "0.0-81.0"
  },
  {
    "rt": -1,
    "key_press": -1,
    "TrialNumber": 83,
    "Subject": "s999",
    "TrialType": 3,
    "Response": 0,
    "TestTrial": 0,
    "trial_type": "single-stim",
    "trial_index": 82,
    "time_elapsed": 545,
    "internal_node_id": "0.0-82.0"
  },
  {
    "rt": -1,
    "key_press": -1,
    "TrialNumber": 84,
    "Subject": "s999",
    "TrialType": 6,
    "Response": 7,
    "TestTrial": 8,
    "trial_type": "single-stim",
    "trial_index": 83,
    "time_elapsed": 549,
    "internal_node_id": "0.0-83.0"
  },
  {
    "rt": -1,
    "key_press": -1,
    "TrialNumber": 85,
    "Subject": "s999",
    "TrialType": 0,
    "Response": 6,
    "TestTrial": 9,
    "trial_type": "single-stim",
    "trial_index": 84,
    "time_elapsed": 554,
    "internal_node_id": "0.0-84.0"
  },
  {
    "rt": -1,
    "key_press": -1,
    "TrialNumber": 86,
    "Subject": "s999",
    "TrialType": 4,
    "Response": 5,
    "TestTrial": 2,
    "trial_type": "single-stim",
    "trial_index": 85,
    "time_elapsed": 559,
    "internal_node_id": "0.0-85.0"
  },
  {
    "rt": -1,
    "key_press": -1,
    "TrialNumber": 87,
    "Subject": "s999",
    "TrialType": 7,
    "Response": 0,
    "TestTrial": 0,
    "trial_type": "single-stim",
    "trial_index": 86,
    "time_elapsed": 563,
    "internal_node_id": "0.0-86.0"
  },
  {
    "rt": -1,
    "key_press": -1,
    "TrialNumber": 88,
    "Subject": "s999",
    "TrialType": 0,
    "Response": 4,
    "TestTrial": 9,
    "trial_type": "single-stim",
    "trial_index": 87,
    "time_elapsed": 568,
    "internal_node_id": "0.0-87.0"
  },
  {
    "rt": -1,
    "key_press": -1,
    "TrialNumber": 89,
    "Subject": "s999",
    "TrialType": 8,
    "Response": 7,
    "TestTrial": 3,
    "trial_type": "single-stim",
    "trial_index": 88,
    "time_elapsed": 573,
    "internal_node_id": "0.0-88.0"
  },
  {
    "rt": -1,
    "key_press": -1,
    "TrialNumber": 90,
    "Subject": "s999",
    "TrialType": 0,
    "Response": 9,
    "TestTrial": 0,
    "trial_type": "single-stim",
    "trial_index": 89,
    "time_elapsed": 577,
    "internal_node_id": "0.0-89.0"
  },
  {
    "rt": -1,
    "key_press": -1,
    "TrialNumber": 91,
    "Subject": "s999",
    "TrialType": 1,
    "Response": 2,
    "TestTrial": 2,
    "trial_type": "single-stim",
    "trial_index": 90,
    "time_elapsed": 582,
    "internal_node_id": "0.0-90.0"
  },
  {
    "rt": -1,
    "key_press": -1,
    "TrialNumber": 92,
    "Subject": "s999",
    "TrialType": 2,
    "Response": 9,
    "TestTrial": 7,
    "trial_type": "single-stim",
    "trial_index": 91,
    "time_elapsed": 587,
    "internal_node_id": "0.0-91.0"
  },
  {
    "rt": -1,
    "key_press": -1,
    "TrialNumber": 93,
    "Subject": "s999",
    "TrialType": 9,
    "Response": 2,
    "TestTrial": 4,
    "trial_type": "single-stim",
    "trial_index": 92,
    "time_elapsed": 591,
    "internal_node_id": "0.0-92.0"
  },
  {
    "rt": -1,
    "key_press": -1,
    "TrialNumber": 94,
    "Subject": "s999",
    "TrialType": 0,
    "Response": 2,
    "TestTrial": 0,
    "trial_type": "single-stim",
    "trial_index": 93,
    "time_elapsed": 596,
    "internal_node_id": "0.0-93.0"
  },
  {
    "rt": -1,
    "key_press": -1,
    "TrialNumber": 95,
    "Subject": "s999",
    "TrialType": 8,
    "Response": 0,
    "TestTrial": 3,
    "trial_type": "single-stim",
    "trial_index": 94,
    "time_elapsed": 600,
    "internal_node_id": "0.0-94.0"
  },
  {
    "rt": -1,
    "key_press": -1,
    "TrialNumber": 96,
    "Subject": "s999",
    "TrialType": 6,
    "Response": 5,
    "TestTrial": 6,
    "trial_type": "single-stim",
    "trial_index": 95,
    "time_elapsed": 605,
    "internal_node_id": "0.0-95.0"
  },
  {
    "rt": -1,
    "key_press": -1,
    "TrialNumber": 97,
    "Subject": "s999",
    "TrialType": 6,
    "Response": 6,
    "TestTrial": 9,
    "trial_type": "single-stim",
    "trial_index": 96,
    "time_elapsed": 609,
    "internal_node_id": "0.0-96.0"
  },
  {
    "rt": -1,
    "key_press": -1,
    "TrialNumber": 98,
    "Subject": "s999",
    "TrialType": 6,
    "Response": 3,
    "TestTrial": 3,
    "trial_type": "single-stim",
    "trial_index": 97,
    "time_elapsed": 617,
    "internal_node_id": "0.0-97.0"
  },
  {
    "rt": -1,
    "key_press": -1,
    "TrialNumber": 99,
    "Subject": "s999",
    "TrialType": 6,
    "Response": 0,
    "TestTrial": 9,
    "trial_type": "single-stim",
    "trial_index": 98,
    "time_elapsed": 622,
    "internal_node_id": "0.0-98.0"
  },
  {
    "rt": -1,
    "key_press": -1,
    "TrialNumber": 100,
    "Subject": "s999",
    "TrialType": 2,
    "Response": 6,
    "TestTrial": 0,
    "trial_type": "single-stim",
    "trial_index": 99,
    "time_elapsed": 627,
    "internal_node_id": "0.0-99.0"
  }
]